Folder: layer_bone_gwas/data

Note: data/breaking_strength.txt
animal_id	load..N.
1	162
2	165
3	255
4	215
7	181
8	148
9	167
10	166
11	168
12	177
13	156
14	143
15	178
16	167
17	158
18	167
19	155
20	136
21	177
22	324
23	167
24	178
25	167
26	147
27	167
29	116
30	199
31	170
32	145
33	140
34	258
35	151
36	168
37	149
38	172
39	143
40	104
42	102
43	128
44	172
45	151
48	146
49	137
50	162
51	143
52	111
53	151
54	265
55	186
56	149
57	233
58	136
59	144
60	107
61	172
63	151
64	125
65	185
66	158
67	234
68	160
69	116
70	139
73	167
74	157
76	106
77	148
79	192
80	145
81	206
82	216
83	149
84	143
86	278
87	128
88	159
89	134
90	139
91	141
92	253
93	175
95	186
96	138
97	131
98	155
101	127
102	220
104	148
105	170
106	148
107	186
108	148
109	191
110	141
111	145
112	146
113	219
114	148
115	144
116	148
118	240
120	141
121	121
122	172
123	146
124	123
125	148
127	138
128	166
129	93
131	131
132	141
133	116
136	154
137	212
138	143
139	185
142	153
144	140
145	127
146	162
147	187
148	126
149	121
150	101
152	180
154	185
155	126
156	200
157	153
158	168
160	204
161	134
162	177
163	128
164	150
166	202
167	142
168	157
172	105
173	178
174	148
175	173
176	228
177	183
182	181
184	151
185	173
186	164
189	152
191	161
192	149
193	137
194	148
196	199
198	135
199	107
200	168
201	144
202	105
203	73
204	137
205	156
207	159
208	171
209	155
211	107
215	157
216	181
219	109
220	152
221	153
223	120
225	140
226	201
227	122
228	132
229	148
231	109
233	154
234	123
235	131
238	111
239	189
240	131
242	153
243	110
244	176
246	131
247	113
248	138
249	209
250	117
251	188
252	146
253	161
255	155
256	134
257	155
260	131
261	174
262	142
263	125
264	175
265	134
266	156
267	160
268	219
269	194
274	204
275	146
276	166
277	101
278	178
279	201
281	140
282	113
283	221
286	121
289	113
290	220
291	144
292	147
293	121
294	152
295	141
297	154
298	158
299	155
300	114
301	104
303	149
304	148
307	163
309	150
310	169
311	181
312	121
313	145
314	137
315	165
316	159
317	133
318	131
319	133
320	94
321	177
322	157
323	150
324	134
325	122
326	137
327	166
328	120
330	127
331	129
332	162
333	107
334	109
335	136
336	132
337	124
338	123
339	151
341	162
343	135
344	158
345	148
346	147
349	205
350	258
351	100
352	180
354	148
356	181
357	218
358	171
359	142
360	136
361	130
362	129
363	120
365	160
366	117
367	87
368	109
369	160
370	216
371	110
373	166
374	130
375	105
377	139
378	146
381	117
382	134
383	141
384	131
385	116
386	130
387	138
389	110
390	174
391	176
392	162
393	221
395	134
397	231
398	125
399	134
400	103
401	138
402	150
405	145
407	164
408	124
409	136
412	106
413	154
414	181
417	149
418	127
421	171
422	128
423	136
424	147
425	142
426	131
435	157
438	157
439	145
440	102
441	121
443	130
445	156
447	125
448	137
449	108
451	131
452	106
453	161
454	124
455	126
456	151
457	115
458	113
460	142
461	113
462	140
463	92
465	168
466	147
467	137
468	131
471	166
472	138
473	154
474	136
475	100
476	114
477	87
478	112
479	146
480	177
481	97
482	128
483	149
484	116
485	96
486	99
487	160
489	156
490	133
491	156
492	141
493	153
494	142
497	158
498	130
499	176
500	116
501	217
502	129
503	136
504	377
50

Note: data/breeds.txt
animal_id	breed
1	Bovans
2	Bovans
3	LSL
4	LSL
7	Bovans
8	Bovans
9	LSL
10	LSL
11	Bovans
12	Bovans
13	Bovans
14	Bovans
15	LSL
16	LSL
17	Bovans
18	Bovans
19	Bovans
20	Bovans
21	LSL
22	LSL
23	Bovans
24	Bovans
25	Bovans
26	Bovans
27	LSL
29	Bovans
30	Bovans
31	Bovans
32	Bovans
33	LSL
34	LSL
35	Bovans
36	Bovans
37	Bovans
38	Bovans
39	LSL
40	LSL
42	Bovans
43	Bovans
44	Bovans
45	LSL
48	Bovans
49	LSL
50	LSL
51	Bovans
52	Bovans
53	LSL
54	LSL
55	LSL
56	LSL
57	Bovans
58	Bovans
59	LSL
60	LSL
61	LSL
63	Bovans
64	Bovans
65	LSL
66	LSL
67	LSL
68	LSL
69	Bovans
70	Bovans
73	LSL
74	LSL
75	Bovans
76	Bovans
77	LSL
79	LSL
80	LSL
81	Bovans
82	Bovans
83	LSL
84	LSL
86	LSL
87	Bovans
88	Bovans
89	LSL
90	LSL
91	LSL
92	LSL
93	Bovans
95	LSL
96	LSL
97	Bovans
98	Bovans
101	Bovans
102	Bovans
104	Bovans
105	LSL
106	LSL
107	Bovans
108	Bovans
109	Bovans
110	Bovans
111	LSL
112	LSL
113	Bovans
114	Bovans
115	Bovans
116	Bovans
118	LSL
120	Bovans
121	Bovans
122	Bovans
123	LSL
124	LSL
125	Bovans
127	Bovans
128	Bovans
129	LSL
131	Bovans
132	Bovans
133	Bovans
136	LSL
137	Bovans
138	Bovans
139	Bovans
142	LSL
144	Bovans
145	LSL
146	LSL
147	Bovans
148	Bovans
149	LSL
150	LSL
152	LSL
154	Bovans
155	LSL
156	LSL
157	LSL
158	LSL
160	Bovans
161	LSL
162	LSL
163	LSL
164	LSL
166	Bovans
167	LSL
168	LSL
170	LSL
171	Bovans
172	Bovans
173	LSL
174	LSL
175	LSL
176	LSL
177	Bovans
182	LSL
184	Bovans
185	LSL
186	LSL
189	Bovans
191	LSL
192	LSL
193	Bovans
194	Bovans
195	LSL
196	LSL
197	Bovans
198	Bovans
199	Bovans
200	Bovans
201	LSL
202	LSL
203	Bovans
204	Bovans
205	Bovans
207	LSL
208	LSL
209	Bovans
211	Bovans
215	Bovans
216	Bovans
219	LSL
220	LSL
221	Bovans
223	Bovans
225	LSL
226	LSL
227	Bovans
228	Bovans
229	Bovans
231	LSL
233	Bovans
234	Bovans
235	Bovans
238	LSL
239	Bovans
240	Bovans
242	LSL
243	Bovans
244	Bovans
246	LSL
247	LSL
248	LSL
249	Bovans
250	Bovans
251	LSL
252	LSL
253	LSL
254	LSL
255	Bovans
256	Bovans
257	LSL
260	LSL
261	Bovans
262	Bovans
263	LSL
264	LSL
265	LSL
266	LSL
267	Bovans
268	Bovans
269	LSL
274	Bovans
275	LSL
276	LSL
277	LSL
278	LSL
279	Bovans
281	LSL
282	LSL
283	LSL
286	Bovans
289	Bovans
290	Bovans
291	LSL
292	Bovans
293	LSL
294	Bovans
295	LSL
297	LSL
298	LSL
299	LSL
300	Bovans
301	LSL
303	Bovans
304	LSL
307	LSL
309	LSL
310	Bovans
311	LSL
312	Bovans
313	LSL
314	Bovans
315	Bovans
316	Bovans
317	LSL
318	Bovans
319	LSL
320	LSL
321	LSL
322	Bovans
323	LSL
324	LSL
325	Bovans
326	Bovans
327	Bovans
328	Bovans
330	LSL
331	Bovans
332	Bovans
333	Bovans
334	Bovans
335	Bovans
336	LSL
337	Bovans
338	LSL
339	LSL
341	LSL
342	LSL
343	LSL
344	LSL
345	Bovans
346	Bovans
349	LSL
350	LSL
351	LSL
352	LSL
354	LSL
356	LSL
357	Bovans
358	Bovans
359	LSL
360	LSL
361	Bovans
362	Bovans
363	Bovans
365	LSL
366	LSL
367	Bovans
368	Bovans
369	LSL
370	LSL
371	Bovans
373	LSL
374	LSL
375	LSL
377	Bovans
378	Bovans
379	LSL
381	Bovans
382	Bovans
383	LSL
384	LSL
385	Bovans
386	Bovans
387	Bovans
388	Bovans
389	LSL
390	LSL
391	Bovans
392	Bovans
393	LSL
395	Bovans
397	LSL
398	LSL
399	Bovans
400	LSL
401	LSL
402	Bovans
405	Bovans
407	LSL

Note: README.md
# Layer bone GWAS

GWAS of the LÃ¶vstad 2015 layer experiment.

* Update SNP chip markers to Galgal6
* Format plink files for GEMMA

File: tga.txt
animal_id	WaterLost_CB	OMLost_CB	CO2Lost_CB	Phosphates_CB	Mineral_CB	Phosphates/OM_CB	CO3/Phosphates_CB	WaterLost_MB	OMLost_MB	CO2Lost_MB	Phosphates_MB	Mineral_MB	Phosphates/OM_MB	CO3/Phosphates_MB
1	8.63895	24.55101	4.44988	62.36015	66.81004	2.54002	10.70367	8.789	50.81084	2.87333	37.52684	40.40016	0.73856	11.48509
10	8.33682	24.36046	4.59929	62.70343	67.30272	2.57398	11.00247	8.34753	53.03805	3.97501	34.63941	38.61442	0.6531	17.21311
17	--	--	--	--	--	--	--	8.07255	67.1436	1.53651	23.24735	24.78385	0.34623	9.9141
24	8.81316	22.81493	2.61795	65.75396	68.37191	2.88206	5.97214
32	10.54316	22.83838	4.58759	62.03087	66.61846	2.71608	11.09349
39	8.51073	25.26685	4.3717	61.85073	66.22242	2.4479	10.60221	7.84811	63.6291	2.53613	25.98666	28.52279	0.40841	14.63904
49	11.00146	22.23441	6.35356	60.41058	66.76413	2.71699	15.77594
56	8.66594	22.26019	5.38098	63.69289	69.07387	2.86129	12.67249	8.51514	46.88543	3.19206	41.40737	44.59943	0.88316	11.56338
64	8.4951	24.16541	3.83859	63.5009	67.33949	2.62776	9.06741	8.25125	55.78319	2.74104	33.22452	35.96555	0.5956	12.37506
73	9.49291	22.14072	4.83579	63.53057	68.36636	2.8694	11.41763
81	8.64169	24.54376	4.01818	62.79638	66.81456	2.55855	9.59811	9.20572	57.5108	2.13111	31.15238	33.28348	0.54168	10.26137
90	10.14056	22.16452	5.26589	62.42903	67.69492	2.81662	12.65251
98	9.12229	23.85643	4.02317	62.9981	67.02128	2.64072	9.57927	8.14979	61.59229	1.88133	28.37658	30.25791	0.46072	9.94481
108	7.98465	25.06482	4.44608	62.50445	66.95053	2.49371	10.66984	9.20731	35.78594	3.6552	51.35155	55.00675	1.43496	10.67699
115	9.06299	25.1599	3.76892	62.0082	65.77712	2.46457	9.11714	8.66242	49.24057	2.88421	39.2128	42.09701	0.79635	11.0329
124	9.0324	24.45905	3.33999	63.16855	66.50854	2.58262	7.93114	8.42627	57.26034	2.98524	31.32815	34.31339	0.54712	14.29342
133	8.82902	24.08719	4.00057	63.08322	67.08379	2.61895	9.51261	8.41311	59.40611	1.9098	30.27099	32.18079	0.50956	9.4635
145	9.45976	24.00368	3.46568	63.07088	66.53656	2.62755	8.24234	9.25272	47.01166	2.55486	41.18076	43.73561	0.87597	9.30601
154	9.00596	24.35655	3.87964	62.75785	66.63749	2.57663	9.27287	9.65602	43.33379	2.93406	44.07614	47.0102	1.01713	9.98519
162	9.28455	24.3122	3.70683	62.69641	66.40325	2.5788	8.86853	8.51473	56.31507	2.7782	32.392	35.1702	0.57519	12.86522
172	9.1812	24.40791	3.51437	62.89653	66.4109	2.57689	8.3813	9.37752	52.13585	2.32889	36.15774	38.48663	0.69353	9.66139
184	10.15497	24.00399	5.36562	60.47543	65.84104	2.51939	13.30859	9.75054	50.48829	3.43065	36.33052	39.76117	0.71958	14.16435
194	10.58868	23.11645	5.30039	60.99448	66.29487	2.63857	13.03491	9.63722	47.80259	3.10927	39.45092	42.56019	0.82529	11.82205
203	9.97391	22.65343	5.44369	61.92898	67.37266	2.73376	13.18531	9.5087	52.82497	3.45957	34.20676	37.66633	0.64755	15.17056
216	10.63447	24.56241	4.25978	60.54333	64.80312	2.46488	10.55388	8.85963	59.05846	2.4724	29.6095	32.0819	0.50136	12.52503
227	9.20313	24.68101	4.45123	61.66463	66.11586	2.49846	10.82768	8.63423	54.12255	2.77291	34.47031	37.24322	0.63689	12.06651
238	10.42146	23.98025	5.13739	60.4609	65.59828	2.52128	12.74556	9.20611	44.44101	4.17697	42.17591	46.35288	0.94903	14.85553
247	8.44128	23.96075	4.33765	63.26032	67.59797	2.64016	10.28524
255	9.06012	25.1145	3.86133	61.96404	65.82538	2.46726	9.34736	9.48154	62.34292	2.11656	26.05898	28.17554	0.41799	12.18331
264	12.05978	21.20342	5.57861	61.15819	66.7368	2.88436	13.6824	9.43562	50.54326	2.65253	37.36858	40.02111	0.73934	10.64744
275	10.07463	23.66889	5.6506	60.60588	66.25648	2.56057	13.98528	8.6629	53.78757	2.98877	34.56077	37.54954	0.64254	12.97181
283	9.63739	21.85019	4.96966	63.54277	68.51242	2.90811	11.73145
297	8.60061	23.16175	4.82779	63.40985	68.23764	2.7377	11.42045	--	--	--	--	--	--	--
341	9.05558	23.88251	4.76819	62.29372	67.06191	2.60834	11.48155	7.63069	55.29305	4.63906	32.4372	37.07626	0.58664	21.45249
351	9.56108	22.33946	4.98162	63.11784	68.09946	2.8254	11.83886
360	8.14467	23.91384	5.24825	62.69324	67.94149	2.62163	12.55697	9.61964	48.4731	2.77822	39.12904	41.90726	0.80723	10.65023
368	9.61162	23.56429	4.94565	61.87844	66.8241	2.62594	11.98879	8.23401	50.98922	3.88794	36.88883	40.77678	0.72346	15.80943
377	10.26149	22.19168	4.45512	63.09171	67.54683	2.84303	10.59201	7.03144	60.98476	2.71196	29.27185	31.98381	0.47999	13.89708
386	9.99847	22.73718	4.36244	62.9019	67.26434	2.76648	10.40296
395	9.26139	23.37021	4.92094	62.44746	67.3684	2.6721	11.82018	6.93471	42.03749	3.76996	47.25785	51.02781	1.12418	11.96615
405	8.52042	24.37718	4.65216	62.45024	67.1024	2.56183	11.17409	9.44517	55.96229	2.14225	32.45029	34.59254	0.57986	9.90246
418	9.50796	23.70135	4.7246	62.0661	66.7907	2.61867	11.41832	6.25188	50.23466	4.52099	38.99247	43.51346	0.77621	17.39178
1008	10.25413	23.27203	2.66653	63.80731	66.47385	2.7418	6.26856	9.94879	38.00699	3.00415	49.04007	52.04422	1.29029	9.18885
1015	10.23987	24.18975	2.81601	62.75437	65.57038	2.59425	6.73103	10.19127	41.93763	3.32225	44.54886	47.8711	1.06226	11.1863
1027	9.83762	23.37482	2.92686	63.86069	66.78756	2.73203	6.8748	10.0186	50.00744	2.43676	37.5372	39.97396	0.75063	9.73736
1038	9.92614	24.00255	2.89743	63.17388	66.07131	2.63196	6.87964	10.37618	40.42544	2.83923	46.35916	49.19839	1.14678	9.18663
1047	10.49655	24.61311	2.73161	62.15874	64.89034	2.52543	6.59185	10.53966	41.20118	3.23191	45.02725	48.25916	1.09286	10.76652
1056	10.05448	24.14531	2.75868	63.04153	65.80022	2.61092	6.56397	10.35489	50.49767	2.26181	36.88564	39.14745	0.73044	9.19792
1066	10.41509	22.85026	2.75231	63.98234	66.73464	2.80007	6.4525	10.20426	54.80416	2.15054	32.84104	34.99158	0.59924	9.82249
1074	10.6538	23.7047	2.60612	63.03538	65.6415	2.65919	6.20157	10.23563	47.96378	2.37303	39.42757	41.8006	0.82203	9.02807
1083	8.9988	24.284	3.11673	63.60048	66.71721	2.61903	7.35072	9.43812	52.3743	2.66975	35.51783	38.18758	0.67815	11.27495
1090	10.97239	22.08665	2.90298	64.03798	66.94096	2.8994	6.79982	10.10856	45.46597	2.78324	41.64224	44.42547	0.9159	10.02553
1102	10.60922	22.32267	4.40219	62.66592	67.06811	2.80728	10.53727	9.22141	44.79513	3.07063	42.91282	45.98346	0.95798	10.73327
1117	10.27553	23.89683	5.41054	60.4171	65.82764	2.52825	13.43296	9.94602	58.96707	2.27091	28.816	31.08691	0.48868	11.8211
1126	9.89456	22.95226	5.30606	61.84712	67.15318	2.6946	12.86898	9.73012	56.71653	2.06172	31.49163	33.55335	0.55525	9.82034
1141	9.37787	23.32036	3.1769	64.12488	67.30177	2.74974	7.43136	9.47813	43.26008	2.52344	44.73835	47.26179	1.03417	8.46068
1151	10.18966	23.34113	4.35811	62.11111	66.46921	2.66102	10.52494	10.91718	50.11793	2.56756	36.39733	38.96489	0.72623	10.58137
1163	9.81644	23.04916	2.81684	64.31756	67.1344	2.79045	6.56937	11.15817	43.03324	3.17238	42.63622	45.8086	0.99077	11.16087
1171	10.68147	23.83608	4.06471	61.41774	65.48245	2.57667	9.92722	10.3346	49.36984	2.72327	37.57228	40.29556	0.76104	10.87214
1181	9.47985	22.94695	3.13047	64.44272	67.57319	2.80833	7.28663	10.60766	31.58228	3.1671	54.64296	57.81006	1.73018	8.69397
1192	10.09739	22.39491	4.24383	63.26386	67.5077	2.82492	10.06222	11.243	44.98457	2.66268	41.10974	43.77243	0.91386	9.71552
1201	9.29814	23.50253	3.15098	64.04834	67.19932	2.72517	7.37954	10.10132	54.57432	2.16241	33.16195	35.32436	0.60765	9.78112
1214	10.62674	21.83827	3.81249	63.72249	67.53498	2.91793	8.97444
1223	11.37663	21.57141	4.41747	62.63448	67.05195	2.90359	10.57916
1232	11.57542	21.57423	3.89476	62.95559	66.85035	2.91809	9.27977	--	--	--	--	--	--	--
1242	9.38965	23.56454	3.0612	63.98461	67.04581	2.71529	7.17642	11.04504	24.80178	4.53245	59.62073	64.15318	2.40389	11.40321
1250	11.14967	21.4967	4.08984	63.26379	67.35363	2.94295	9.69712	--	--	--	--	--	--	--
1261	11.30445	21.97795	3.93684	62.78076	66.7176	2.85653	9.40616	--	--	--	--	--	--	--
1271	10.45949	22.25627	3.84868	63.43555	67.28423	2.85023	9.10061
1279	10.53632	21.60342	4.28979	63.57047	67.86026	2.94261	10.12213
1293	10.72513	22.38952	4.32143	62.56392	66.88535	2.79434	10.36083
1315	9.48464	22.07728	4.79373	63.64435	68.43808	2.8828	11.29809	9.92322	47.08352	4.9409	38.05236	42.99326	0.80819	19.4767
1342	9.64206	22.84735	4.47829	63.0323	67.51059	2.75885	10.65713	11.16153	33.78364	3.46781	51.58701	55.05482	1.52698	10.08339
1349	9.25318	23.66628	3.28903	63.79152	67.08055	2.69546	7.73386	10.29068	51.05545	3.01497	35.6389	38.65386	0.69804	12.68965
1361	9.72766	23.65443	1.84461	64.77331	66.61792	2.73832	4.27168	7.82918	31.2745	6.39363	54.50268	60.89631	1.74272	17.59628
1372	8.77139	23.74777	4.6102	62.87064	67.48084	2.64743	10.99926	7.68185	42.27018	3.87157	46.17639	50.04796	1.09241	12.57646
1386	9.62131	23.75376	4.9511	61.67383	66.62493	2.59638	12.04181	10.47179	35.57671	2.90675	51.04475	53.9515	1.43478	8.54176
1397	9.24646	23.19202	4.41357	63.14795	67.56152	2.72283	10.48387	7.35827	51.33265	3.84383	37.46525	41.30908	0.72985	15.38958
1407	9.94439	22.97977	4.26785	62.80799	67.07584	2.73319	10.19262	6.77884	59.25433	4.60396	29.36287	33.96683	0.49554	23.51931
1420	9.26303	23.26309	3.91413	63.55976	67.47389	2.73222	9.23727	10.55471	51.04665	2.70059	35.69805	38.39864	0.69932	11.34765
1428	9.32211	23.99627	3.27369	63.40794	66.68162	2.64241	7.74435	6.44789	51.49446	4.16851	37.88914	42.05765	0.73579	16.50281
1443	8.63637	23.60632	3.54007	64.21724	67.75731	2.72034	8.26897	9.27277	57.73599	2.15149	30.83976	32.99125	0.53415	10.46453
1498	8.55489	23.95052	3.36866	64.12592	67.49458	2.67743	7.8798	9.47935	50.2926	2.83993	37.38812	40.22806	0.74341	11.39372
1516	9.07279	24.79767	3.02588	63.10366	66.12954	2.54474	7.19265	9.98668	51.79533	2.02841	36.18958	38.21799	0.6987	8.40745